sound,button,corr,congruent,trials.thisRepN,trials.thisTrialN,trials.thisN,trials.thisIndex,text.started,text.stopped,key_resp_3.keys,key_resp_3.rt,key_resp_3.started,key_resp_3.stopped,text_2.started,text_2.stopped,text_3.started,text_3.stopped,sound_1.started,sound_1.stopped,key_resp.keys,key_resp.rt,key_resp.started,key_resp.stopped,text_4.started,text_4.stopped,sound_2.started,sound_2.stopped,key_resp_2.keys,key_resp_2.rt,key_resp_2.started,key_resp_2.stopped,text_5.started,text_5.stopped,key_resp_4.keys,key_resp_4.rt,key_resp_4.started,key_resp_4.stopped,back.started,back.stopped,image.started,image.stopped,sound_3.started,sound_3.stopped,key_resp_5.keys,key_resp_5.corr,key_resp_5.rt,key_resp_5.started,key_resp_5.stopped,participant,session,date,expName,psychopyVersion,frameRate,
,,,,,,,,17.41878910001833,None,space,0.9220581999979913,17.41878910001833,None,,,,,,,,,,,,,,,,,,,,,,,,,,,,,,,,,,,,S001,001,2021_Apr_22_1820,simon,2021.1.2,59.92229277198131,
,,,,,,,,,,,,,,18.381734399998095,21.379792599997018,21.364535700005945,None,23.36287117001484,None,1,0.5188749000080861,23.362610500014853,None,,,,,,,,,,,,,,,,,,,,,,,,,,S001,001,2021_Apr_22_1820,simon,2021.1.2,59.92229277198131,
,,,,,,,,,,,,,,,,,,,,,,,,23.914749899995513,None,2.0064583699568175,None,0,0.45265479997033253,25.896441199991386,None,,,,,,,,,,,,,,,,,,S001,001,2021_Apr_22_1820,simon,2021.1.2,59.92229277198131,
,,,,,,,,,,,,,,,,,,,,,,,,,,,,,,,,26.381461400014814,None,space,0.7149162000278011,26.381461400014814,None,,,,,,,,,,,,S001,001,2021_Apr_22_1820,simon,2021.1.2,59.92229277198131,
R.wav,R.png,0,1,0,0,0,1,,,,,,,,,,,,,,,,,,,,,,,,,,,,,,,27.209094399993774,None,28.146383700019214,None,28.14630757001578,None,0,1,1.3894438000279479,27.209094399993774,None,S001,001,2021_Apr_22_1820,simon,2021.1.2,59.92229277198131,
R.wav,L.png,0,0,0,1,1,3,,,,,,,,,,,,,,,,,,,,,,,,,,,,,,,28.65723229997093,None,29.646865600021556,None,29.646596370002953,None,0,1,1.496409900020808,28.65723229997093,None,S001,001,2021_Apr_22_1820,simon,2021.1.2,59.92229277198131,
L.wav,L.png,1,1,0,2,2,0,,,,,,,,,,,,,,,,,,,,,,,,,,,,,,,30.21276789996773,None,31.197088500019163,None,31.196439170016674,None,1,1,1.4733855999656953,30.21276789996773,None,S001,001,2021_Apr_22_1820,simon,2021.1.2,59.92229277198131,
L.wav,R.png,1,0,0,3,3,2,,,,,,,,,,,,,,,,,,,,,,,,,,,,,,,31.733775399974547,None,32.71845330001088,None,32.71782087002066,None,1,1,1.5593676999560557,31.733775399974547,None,S001,001,2021_Apr_22_1820,simon,2021.1.2,59.92229277198131,
R.wav,L.png,0,0,1,0,4,3,,,,,,,,,,,,,,,,,,,,,,,,,,,,,,,33.36552719998872,None,34.34618639998371,None,34.34623436999391,None,0,1,1.454876300005708,33.36552719998872,None,S001,001,2021_Apr_22_1820,simon,2021.1.2,59.92229277198131,
L.wav,L.png,1,1,1,1,5,0,,,,,,,,,,,,,,,,,,,,,,,,,,,,,,,34.86431500001345,None,35.864535000000615,None,35.86317826996674,None,1,1,1.44328880001558,34.86431500001345,None,S001,001,2021_Apr_22_1820,simon,2021.1.2,59.92229277198131,
L.wav,R.png,1,0,1,2,6,2,,,,,,,,,,,,,,,,,,,,,,,,,,,,,,,36.3624972999678,None,37.363309199979994,None,37.362997769989306,None,0,0,1.5622781999991275,36.3624972999678,None,S001,001,2021_Apr_22_1820,simon,2021.1.2,59.92229277198131,
R.wav,R.png,0,1,1,3,7,1,,,,,,,,,,,,,,,,,,,,,,,,,,,,,,,37.977383799967356,None,38.96339709998574,None,38.96300616997178,None,0,1,1.6837679999880493,37.977383799967356,None,S001,001,2021_Apr_22_1820,simon,2021.1.2,59.92229277198131,
L.wav,R.png,1,0,2,0,8,2,,,,,,,,,,,,,,,,,,,,,,,,,,,,,,,39.71373129996937,None,40.71399109996855,None,40.71306266999454,None,1,1,1.554384899965953,39.71373129996937,None,S001,001,2021_Apr_22_1820,simon,2021.1.2,59.92229277198131,
R.wav,R.png,0,1,2,1,9,1,,,,,,,,,,,,,,,,,,,,,,,,,,,,,,,41.30925930000376,None,42.29665129998466,None,42.29644947001361,None,0,1,1.346910000022035,41.30925930000376,None,S001,001,2021_Apr_22_1820,simon,2021.1.2,59.92229277198131,
L.wav,L.png,1,1,2,2,10,0,,,,,,,,,,,,,,,,,,,,,,,,,,,,,,,42.712714899971616,None,43.70394119998673,None,43.702832569979364,None,1,1,1.6276020999648608,42.712714899971616,None,S001,001,2021_Apr_22_1820,simon,2021.1.2,59.92229277198131,
R.wav,L.png,0,0,2,3,11,3,,,,,,,,,,,,,,,,,,,,,,,,,,,,,,,44.387455600022804,None,45.380103099974804,None,45.380169370007934,None,0,1,1.5380787999602035,44.387455600022804,None,S001,001,2021_Apr_22_1820,simon,2021.1.2,59.92229277198131,
R.wav,L.png,0,0,3,0,12,3,,,,,,,,,,,,,,,,,,,,,,,,,,,,,,,45.98110669996822,None,46.98011020000558,None,46.98027696998906,None,1,0,1.3506596999941394,45.98110669996822,None,S001,001,2021_Apr_22_1820,simon,2021.1.2,59.92229277198131,
R.wav,R.png,0,1,3,1,13,1,,,,,,,,,,,,,,,,,,,,,,,,,,,,,,,47.373827999981586,None,48.364841200003866,None,48.363579569995636,None,0,1,1.3481122000375763,47.373827999981586,None,S001,001,2021_Apr_22_1820,simon,2021.1.2,59.92229277198131,
L.wav,R.png,1,0,3,2,14,2,,,,,,,,,,,,,,,,,,,,,,,,,,,,,,,48.78078400000231,None,49.78068859997438,None,49.77977817002102,None,0,0,1.7266065999865532,48.78078400000231,None,S001,001,2021_Apr_22_1820,simon,2021.1.2,59.92229277198131,
L.wav,L.png,1,1,3,3,15,0,,,,,,,,,,,,,,,,,,,,,,,,,,,,,,,50.56942329998128,None,51.56439890002366,None,51.56335207002121,None,1,1,1.383010900055524,50.56942329998128,None,S001,001,2021_Apr_22_1820,simon,2021.1.2,59.92229277198131,
R.wav,L.png,0,0,4,0,16,3,,,,,,,,,,,,,,,,,,,,,,,,,,,,,,,51.99775649997173,None,52.980541999975685,None,52.980231169989565,None,0,1,1.6076460999902338,51.99775649997173,None,S001,001,2021_Apr_22_1820,simon,2021.1.2,59.92229277198131,
L.wav,L.png,1,1,4,1,17,0,,,,,,,,,,,,,,,,,,,,,,,,,,,,,,,53.674427399993874,None,54.66573890001746,None,54.66372336997301,None,1,1,1.3750669000437483,53.674427399993874,None,S001,001,2021_Apr_22_1820,simon,2021.1.2,59.92229277198131,
R.wav,R.png,0,1,4,2,18,1,,,,,,,,,,,,,,,,,,,,,,,,,,,,,,,55.096867299987935,None,56.08175369998207,None,56.08058057000744,None,0,1,1.3831966000143439,55.096867299987935,None,S001,001,2021_Apr_22_1820,simon,2021.1.2,59.92229277198131,
L.wav,R.png,1,0,4,3,19,2,,,,,,,,,,,,,,,,,,,,,,,,,,,,,,,56.544540699978825,None,57.53160260000732,None,57.53083107000566,None,0,0,1.3369564000167884,56.544540699978825,None,S001,001,2021_Apr_22_1820,simon,2021.1.2,59.92229277198131,
